Folder: xRay_spectra/R_code

Note: readme.md
Thanks to

de Rooi, Johan J., et al. 
"Smoothing of X-ray diffraction data and KÎ±2 elimination using penalized likelihood and the composite link model." 
Journal of Applied Crystallography 47.3 (2014): 852-860.

and to
https://github.com/ibcp/spectra-heplers

File: LAB6_step007time02_12jan11uxd.uxd
; (content of file Z:\mse\sc\general\XRD-SRD\eilers\LAB6_step007time02_12jan11.raw)
_FILEVERSION = 2
_SAMPLE = "45/30 4A16 SP52  noscreen! psd9dgr (22/32mm) mono2"
_+SAMPLE =
_SITE = NL
_USER = SRd
_GONIOMETER_CODE = 20
; Goniometer : D8 theta/2theta, stage : Unknown
_SAMPLE_CHANGER_CODE = 0
_ATTACHMENTS_CODE = 0
_GONIOMETER_RADIUS = 275
_FIXED_DIVSLIT = 6
_FIXED_SAMPLESLIT = 1
_FIXED_DETSLIT = 32.09
_MONOCHROMATOR = 0
; Incident beam monochromator : None
_THIN_FILM = N
_BETA_FILTER = N
_FIXED_ANTISLIT = 20.19
_ANALYZER_CODE = 1
; Received beam analyzer : Graphite
_DATEMEASURED = "12-Jan-2011 14:27:16"
_WL_UNIT = A
_WL1 = 1.78897
_WL2 = 1.79285
_WL3 = 1.62079
_WLRATIO = 0.5
_ANODE = Co

; Data for range 1
_DRIVE = COUPLED
_STEPTIME = 27.2
_STEPSIZE = 0.00691285
_STEPMODE = C
_START = 30
_THETA = 15
_2THETA = 30
_KHI = 0
_PHI = 0
_X = 0
_Y = 0
_Z = 0
_DIVERGENCE = 1.971
_DETECTOR = 5
; Detector type : Unknown
_DETECTORSLIT = out
_AUX1 = 0
_AUX2 = 0
_AUX3 = 0
_TIMESTARTED = 9
_ROTATION_SPEED = 30
_TEMP_RATE = -1
_TEMP_DELAY = -1
_KV = 45
_MA = 35
_RANGE_WL = 1.78897
_3DPLANE = 0
_V4_COUNTERS_MASK = 4096
_V4_DRIVES_MASK = 0
_V4_ENCODERS_MASK = 0
_2THETACOUNTS = 1
; 2THETA  PSD
  30.0000         45
  30.3664         57
  30.7328         48
  31.0991         43
  31.4655         51
  31.8319         64
  32.1983         62
  32.5647         47
  32.9310         46
  33.2974         43
  33.6638         56
  34.0302         42
  34.3966         46
  34.7630         50
  35.1293         68
  35.4957       1196
  35.8621         66
  36.2285         37
  36.5949         38
  36.9612         39
  37.3276         35
  37.6940         35
  38.0604         36
  38.4268         40
  38.7931         27
  39.1595         20
  39.5259         29
  39.8923         30
  40.2587         30
  40.6251         17
  40.9914         21
  41.3578         22
  41.7242         24
  42.0906         24
  42.4570         27
  42.8233         21
  43.1897         21
  43.5561         54
  43.9225        334
  44.2889         22
  44.6552         18
  45.0216         16
  45.3880         22
  45.7544         18
  46.1208         28
  46.4871         22
  46.8535         23
  47.2199         19
  47.5863         14
  47.9527         21
  48.3191         12
  48.6854         14
  49.0518         24
  49.4182         20
  49.7846         17
  50.1510         20
  50.5173         22
  50.8837         69
  51.2501         39
  51.6165         18
  51.9829         16
  52.3492         13
  52.7156         13
  53.0820         18
  53.4484         11
  53.8148         15
  54.1811         13
  54.5475         10
  54.9139         12
  55.2803         13
  55.6467         12
  56.0131         13
  56.3794         17
  56.7458         10
  57.1122         17
  57.4786        255
  57.8450         59
  58.2113         15
  58.5777         15
  58.9441          9
  59.3105         15
  59.6769         12
  60.0432         16
  60.4096         12
  60.7760         10
  61.1424         12
  61.5088         13
  61.8752         10
  62.2415         10
  62.6079          7
  62.9743         15
  63.3407         19
  63.7071        231
  64.0734         14
  64.4398         10
  64.8062         16
  65.1726          8
  65.5390          9
  65.9053         12
  66.2717         11
  66.6381          9
  67.0045         14
  67.3709         12
  67.7372          6
  68.1036         10
  68.4700          6
  68.8364          9
  69.2028          9
  69.5692          7
  69.9355         13
  70.3019          7
  70.6683          7
  71.0347          9
  71.4011          7
  71.7674         11
  72.1338          6
  72.5002          9
  72.8666          6
  73.2330          8
  73.5993          5
  73.9657         14
  74.3321          6
  74.6985         17
  75.0649         82
  75.4313         11
  75.7976          9
  76.1640         10
  76.5304          5
  76.8968          4
  77.2632          8
  77.6295          6
  77.9959          7
  78.3623          7
  78.7287          8
  79.0951          7
  79.4614          6
  79.8278         12
  80.1942         26
  80.5606        116
  80.9270         13
  81.2933          7
  81.6597         10
  82.0261          7
  82.3925          7
  82.7589          6
  83.1253          8
  83.4916          9
  83.8580          8
  84.2244         10
  84.5908          9
  84.9572         13
  85.3235          6
  85.6899         63
  86.0563        108
  86.4227         11
  86.7891         10
  87.1554          4
  87.5218          7
  87.8882          9
  88.2546         10
  88.6210          8
  88.9873          6
  89.3537          7
  89.7201          8
  90.0865         12
  90.4529          7
  90.8193         16
  91.1856         59
  91.5520         19
  91.9184          4
  92.2848          4
  92.6512          5
  93.0175          5
  93.3839          6
  93.7503         10
  94.1167          7
  94.4831          7
  94.8494         13
  95.2158          3
  95.5822          3
  95.9486          6
  96.3150         13
  96.6814         20
  97.0477         13
  97.4141         10
  97.7805         12
  98.1469          8
  98.5133         13
  98.8796         14
  99.2460          7
  99.6124         13
  99.9788          4
 100.3452         10
 100.7115          5
 101.0779         13
 101.4443         15
 101.8107        133
 102.1771         29
 102.5434         10
 102.9098          7
 103.2762          7
 103.6426         17
 104.0090         13
 104.3754         16
 104.7417         17
 105.1081          8
 105.4745         15
 105.8409          7
 106.2073         11
 106.5736         14
 106.9400         14
 107.3064        245
 107.6728         70
 108.0392         15
 108.4055         13
 108.7719          7
 109.1383         11
 109.5047         13
 109.8711         12
 110.2374         15
 110.6038          7
 110.9702         15
 111.3366          9
 111.7030         17
 112.0694         11
 112.4357          9
 112.8021         11
 113.1685         13
 113.5349         13
 113.9013          9
 114.2676          8
 114.6340         16
 115.0004         10
 115.3668         11
 115.7332          9
 116.0995         11
 116.4659         10
 116.8323          6
 117.1987         11
 117.5651         12
 117.9315         12
 118.2978         10
 118.6642         14
 119.0306         14
 119.3970         18
 119.7634          4
 120.1297         12
 120.4961          6
 120.8625         13
 121.2289         16
 121.5953          6
 121.9616          9
 122.3280         13
 122.6944         18
 123.0608         12
 123.4272          8
 123.7935          7
 124.1599         14
 124.5263         12
 124.8927         47
 125.2591         58
 125.6255         96
 125.9918         14
 126.3582         12
 126.7246         13
 127.0910         18
 127.4574         21
 127.8237          9
 128.1901         19
 128.5565         14
 128.9229         12
 129.2893         13
 129.6556         10
 130.0220         14
 130.3884         10
 130.7548         14
 131.1212         19
 131.4876         24
 131.8539        252
 132.2203         46
 132.5867         40
 132.9531          4
 133.3195          8
 133.6858         16
 134.0522          7
 134.4186         13
 134.7850          8
 135.1514         12
 135.5177          6
 135.8841          9
 136.2505         14
 136.6169         16
 136.9833         14
 137.3496          9
 137.7160          9
 138.0824         12
 138.4488         17
 138.8152         10
 139.1816         25
 139.5479         56
 139.8590         21